测点名称    
J7point(N)

位置初始值(mm)
0.0338  
速度初始值(mm/d)
0       

观测噪声协方差(mm^2)  状态噪声协方差(mm^2)
3.404                   0.308   

状态模型    
常速度模型   

滤波方法    
抗差Kalman滤波

监测期号    原始坐标序列(mm)    滤波值(mm)    预测值(mm) 
1              0.177            0.0885         0.0338         
2              -0.342           -0.0336        0.091          
3              -0.136           -0.0584        -0.0368        
4              -1.776           -0.3946        -0.0628        
5              -0.135           -0.3591        -0.4154        
6              2.191            -0.1504        -0.3775        
7              2.495            0.0331         -0.1572        
8              -2.283           -0.187         0.0367         
9              0.051            -0.1608        -0.1962        
10             0.372            -0.1006        -0.1682        
11             0.949            0.016          -0.104         
12             -0.228           -0.0083        0.0201         
13             0.259            0.0202         -0.006         
14             0.005            0.0206         0.0245         
15             -0.075           0.0133         0.0248         
16             -2.384           -0.1192        0.0167         
17             -0.044           -0.1151        -0.1256        
18             -1.494           -0.2436        -0.1209        
19             0.087            -0.221         -0.259         
20             -2.216           -0.3926        -0.234         
21             -1.707           -0.519         -0.4185        
22             2.288            -0.5228        -0.8317        
23             2.675            -0.4174        -0.5464        
24             -1.58            -0.5951        -0.4325        
25             0.427            -0.4673        -0.6223        
26             1.044            -0.2819        -0.4846        
27             0.82             -0.151         -0.2858        
28             0.163            -0.1128        -0.1457        
29             0.158            -0.0799        -0.1051        
30             -0.121           -0.0799        -0.0703        
31             0.317            -0.0358        -0.0705        
32             -1.034           -0.1272        -0.0238        
33             -0.897           -0.1971        -0.1218        
34             -0.636           -0.2369        -0.1965        
35             -0.43            -0.2551        -0.2391        
36             -1.447           -0.3602        -0.2584        
37             -0.462           -0.3735        -0.3704        
38             -0.817           -0.4154        -0.3843        
39             0.287            -0.364         -0.4287        
40             -1.486           -0.4587        -0.3733        
41             0.24             -0.4103        -0.4741        
42             -0.215           -0.4004        -0.4219        
43             -0.251           -0.3937        -0.4109        
44             -1.572           -0.4884        -0.4034        
45             0.754            -0.4015        -0.5043        
46             2.455            -0.3374        -0.4109        
47             1.433            -0.203         -0.342         
48             1.689            -0.0564        -0.1982        
49             1.689            0.1304         0.0032         
50             1.689            0.2778         0.1517         
51             1.689            0.4675         0.3892         
52             1.689            0.594          0.4948         
53             1.689            0.7283         0.6656         
54             1.689            0.8418         0.7868         
55             1.689            0.9457         0.9059         
56             1.689            1.0412         1.0146         
57             1.689            1.7518         2.4996         
58             -0.398           1.4113         1.8237         
59             -0.808           1.1277         1.4629         
60             -1.146           0.8817         1.1628         
61             -0.394           0.7113         0.9028         
62             -0.923           0.505          0.7227         
63             0.426            0.4956         0.5051         
64             -1.378           0.2849         0.4952         
65             0.367            0.2883         0.2731         
66             -0.568           0.197          0.2771         
67             -0.358           0.1364         0.181          
68             -0.971           0.0256         0.1175         
69             1.546            0.1497         0.001          
70             2.892            0.2317         0.1329         
71             0.993            0.2922         0.2201         
72             -0.29            0.2398         0.2845         
73             -0.368           0.1851         0.2292         
74             3.879            0.2029         0.1716         
75             -1.024           0.0947         0.1908         
76             0.527            0.1216         0.0763         
77             0.921            0.1782         0.1055         
78             1.271            0.2585         0.1662         
79             -0.412           0.2037         0.252          
80             -0.037           0.1808         0.1938         
81             -0.96            0.0899         0.1698         
82             -0.784           0.0172         0.0733         
83             -3.046           -0.0376        0.0106         
84             -1.931           -0.3289        -0.2246        
85             0.076            -0.3031        -0.3664        
86             -1.02            -0.391         -0.3376        
87             1.623            -0.2315        -0.4301        
88             2.751            -0.1658        -0.259         
89             0.963            -0.0677        -0.188         
90             -0.02            -0.0702        -0.0828        
91             -0.532           -0.1185        -0.0849        
92             5.691            -0.1272        -0.1359        
93             -0.152           -0.1374        -0.1446        
94             0.748            -0.0653        -0.1549        
95             0.705            -0.003         -0.0763        
96             2.796            0.0931         -0.0471        
97             2.796            0.2988         0.0915         
98             2.796            0.5291         0.311          
99             2.796            0.7829         0.5546         
100            2.796            1.0592         0.8226         
101            2.796            1.2921         1.1102         
102            2.796            1.4957         1.3636         
103            2.796            1.6705         1.5725         
104            2.796            1.8242         1.7552         
105            2.796            1.961          1.9155         
106            2.796            2.0808         2.0519         
107            4.018            2.3061         2.1879         
108            4.018            2.508          2.4175         
109            4.018            2.6356         2.518          
110            -1.325           2.7465         2.8802         
111            -0.537           2.7616         2.8734         
112            -0.986           2.7993         2.8855         
113            -2.229           2.8605         2.9217         
114            1.019            2.7297         2.9829         
115            -0.505           2.7258         2.8401         
116            -3.476           2.7792         2.8325         
117            -1.288           2.8173         2.8859         
118            -0.78            2.8272         2.923          
119            -2.949           2.8787         2.9303         
120            0.038            2.8079         2.9818         
121            -0.563           2.788          2.9035         
122            -1.203           2.8092         2.8795         
123            -0.149           2.7355         2.8991         
124            1.849            2.6592         2.8183         
125            2.702            2.6976         2.7349         
126            -0.457           2.6547         2.7733         
127            -0.233           2.5811         2.7255         
128            -1.26            2.5832         2.6454         
129            6.332            2.6568         2.6457         
130            -0.293           2.5764         2.7218         
131            -0.02            2.4519         2.6347         
132            0.542            2.2496         2.501          
133            0.227            2.061          2.2853         
134            -1.487           2.0269         2.0844         
135            -0.549           1.8988         2.0476         
136            -0.395           1.7381         1.9112         
137            -0.626           1.5686         1.7456         
138            -1.072           1.402          1.545          
139            -0.215           1.1679         1.3508         
140            -0.322           0.9284         1.0797         
141            0.635            0.835          0.8059         
142            1.048            0.8102         0.707          
143            1.078            0.7967         0.6888         
144            -0.492           0.5609         0.6834         
145            -0.918           0.2826         0.4174         
146            -1.127           -0.0016        0.1046         
147            -0.784           -0.2074        -0.212         
148            0.051            -0.2655        -0.4344        
149            -0.137           -0.339         -0.4834        
150            0.664            -0.2791        -0.551         
151            0.664            -0.2165        -0.4641        
152            0.664            -0.1525        -0.3763        
153            0.664            -0.0881        -0.2889        
154            0.664            -0.0027        -0.1291        
155            0.664            0.0581         -0.0655        
156            0.664            0.104          -0.0245        
157            0.664            0.155          0.0496         
158            1.303            0.3699         -0.2867        
159            -0.391           0.1683         0.3755         
160            0.265            0.1824         0.1459         
161            0.067            0.1505         0.1635         
162            -1.42            -0.1651        0.1285         
163            -1.343           -0.4069        -0.2288        
164            -1.412           -0.6201        -0.4996        
165            -0.779           -0.68          -0.7018        
166            -1.678           -1.1725        -1.311         
167            -1.654           -1.3389        -1.3168        
168            -1.474           -1.4294        -1.4964        
169            -0.252           -1.2647        -1.5886        
170            0.178            -1.0308        -1.2695        
171            -0.791           -1.1765        -1.6647        
172            0.024            -0.8891        -1.2444        
173            -0.163           -0.732         -0.9138        
174            0.026            -0.5752        -0.734         
175            0.356            -0.3881        -0.5558        
176            0.145            -0.2737        -0.3444        
177            -0.987           -0.3734        -0.217         
178            -0.855           -0.4375        -0.335         
179            -1.073           -0.5292        -0.4113        
180            -0.213           -0.4747        -0.5186        
181            0.4              -0.3309        -0.4567        
182            -0.345           -0.3166        -0.2919        
183            -5.596           -0.1608        0.101          
184            -3.367           -0.9973        -0.1595        
185            -1.916           -1.3412        -1.0683        
186            -0.048           -1.0146        -1.4492        
187            0.025            -0.787         -1.077         
188            0.788            -0.4611        -0.818         
189            -0.219           -0.4091        -0.4497        
190            1.135            -0.1371        -0.3997        
191            -2.905           -0.8692        0.5023         
192            1.934            -0.2481        -0.883         
193            -0.311           -0.2649        -0.2448        
194            1.398            0.1391         -0.2636        
195            -0.548           0.0107         0.1879         
196            0.227            0.0811         0.071          
197            0.1              0.0991         0.1165         
198            -1.152           -0.1176        0.1345         
199            -0.878           -0.2493        -0.1142        
200            -0.159           -0.2406        -0.2648        
201            0.447            -0.1339        -0.2536        
202            -0.237           -0.1487        -0.1301        
203            1.097            0.0473         -0.1474        
204            -0.074           0.0419         0.0791         
205            -0.195           0.0138         0.0559         
206            -1.057           -0.1257        0.0253         
207            -1.073           -0.2559        -0.1264        
208            -1.314           -0.413         -0.2781        
209            -1.014           -0.5182        -0.4597        
210            0.253            -0.4333        -0.5787        
211            -0.552           -0.468         -0.4742        
212            0.947            -0.2784        -0.5114        
213            0.042            -0.234         -0.2859        
214            -1.344           -0.3997        -0.2335        
215            -0.638           -0.4471        -0.4271        
216            -0.938           -0.5352        -0.4802        
217            -0.396           -0.5333        -0.5802        
218            0.399            -0.4093        -0.5742        
219            -0.706           -0.4615        -0.4263        
220            0.496            -0.3292        -0.479         
221            -1.398           -0.5172        -0.3314        
222            -1.358           -0.6737        -0.5485        
223            -0.789           -0.7153        -0.7275        
224            -0.202           -0.6549        -0.7715        
225            0.07             -0.5559        -0.697         
226            -0.85            -0.6123        -0.579         
227            0.473            -0.4549        -0.6425        
228            -0.462           -0.4572        -0.4578        
229            -0.747           -0.5031        -0.4602        
230            -2.079           -0.7486        -0.5132        
231            -1.699           -0.9138        -0.7971        
232            -0.908           -0.9431        -0.9849        
233            -1.035           -0.9622        -0.9584        
234            -2.401           -1.5435        -1.45          
235            -0.753           -1.3948        -1.6642        
236            0.132            -1.0934        -1.4858        
237            -0.608           -1.012         -1.1358        
238            0.6              -0.7186        -1.04          
239            -0.72            -0.7125        -0.7031        
240            -0.107           -0.6024        -0.6972        
241            -1.364           -0.7159        -0.5723        
242            -0.039           -0.6022        -0.7047        
243            -1.025           -0.6573        -0.5748        
244            0.334            -0.4963        -0.6404        
245            -0.055           -0.4114        -0.4558        
246            0.591            -0.2373        -0.3608        
247            0.017            -0.1673        -0.1632        
248            -0.048           -0.1156        -0.088         
249            -0.77            -0.1798        -0.0344        
250            -0.3             -0.1706        -0.1155        
251            -0.448           -0.1866        -0.11          
252            0.494            -0.0616        -0.1336        
253            -0.06            -0.032         0.0075         
254            0.562            0.0866         0.0363         
255            -0.388           0.0498         0.1687         
256            -0.211           0.0399         0.1192         
257            -1.178           -0.1177        0.102          
258            -1.227           -0.2721        -0.0866        
259            0.014            -0.2275        -0.2688        
260            1.058            0.3977         -0.1035        
261            -0.9             -0.0151        0.4355         
262            -0.161           -0.0478        -0.0017        
263            -0.706           -0.1877        -0.0262        
264            0.094            -0.1292        -0.1842        
265            -0.149           -0.1286        -0.1187        
266            0.468            -0.0197        -0.1187        
267            0.676            0.1066         0.004          
268            0.393            0.1695         0.1461         
269            0.145            0.1845         0.2142         
270            0.145            0.1795         0.1853         
271            -0.37            0.1233         0.2232         
272            -0.794           0.0106         0.155          
273            -0.008           0.0129         0.022          
274            -0.472           -0.0508        0.0237         
275            0.915            0.0868         -0.0514        
276            0.929            0.2181         0.1092         
277            0.619            0.2948         0.2607         
278            -0.462           0.2054         0.3468         
279            0.497            0.2626         0.2379         
280            -0.7             0.1353         0.302          
281            -0.17            0.0956         0.1499         
282            -0.316           0.0399         0.0981         
283            1.279            0.191          0.0398         
284            -0.338           0.134          0.2043         
285            0.895            0.2332         0.1459         
286            -4.671           0.2353         0.2374         
287            0.425            0.3006         0.3146         
288            -0.23            0.2245         0.3263         
289            0.957            0.3551         0.2453         
290            0.035            0.3142         0.3745         
291            3.703            0.398          0.3155         
292            1.622            0.5734         0.4162         
293            0.444            0.5854         0.643          
294            0.957            0.666          0.6512         
295            1.198            0.7733         0.7397         
296            -0.257           0.6616         0.8587         
297            -0.181           0.5649         0.7215         
298            -0.699           0.3967         0.6038         
299            -0.981           0.1973         0.4045         
300            -0.537           0.0777         0.1716         
301            0.247            0.0844         0.0344         
302            -0.227           0.0216         0.0458         
303            0.92             0.1363         -0.0242        
304            0.209            0.1373         0.1131         
305            -0.24            0.0718         0.1162         
306            -0.809           -0.0732        0.0417         
307            -1.612           -0.3261        -0.1245        
308            0.196            -0.2852        -0.4145        
309            0.659            -0.175         -0.3598        
310            -0.16            -0.1942        -0.2255        
311            0.603            -0.0954        -0.2437        
312            -0.278           -0.1353        -0.1248        
313            -0.257           -0.1679        -0.1689        
314            -1.272           -0.3492        -0.204         
315            -1.387           -0.5319        -0.4119        
316            -0.363           -0.5436        -0.6192        
317            0.704            -0.3909        -0.6257        
318            -0.277           -0.3952        -0.4414        
319            0.96             -0.2115        -0.4424        
320            -0.115           -0.2027        -0.2249        
321            -0.714           -0.2842        -0.2135        
322            -1.039           -0.4076        -0.3074        
323            -1.425           -0.5782        -0.449         
324            -0.187           -0.5344        -0.6013        
325            -0.069           -0.4888        -0.5713        
326            0.777            -0.3377        -0.5351        
327            -1.164           -0.459         -0.3552        
328            1.076            -0.2598        -0.4952        
329            -0.242           -0.2573        -0.2598        
330            -0.299           -0.263         -0.2568        
331            -1.33            -0.4181        -0.2636        
332            -1.316           -0.5542        -0.4385        
333            -0.469           -0.5684        -0.6181        
334            0.457            -0.4328        -0.6072        
335            -0.07            -0.3866        -0.4515        
336            0.726            -0.2243        -0.3962        
337            -0.058           -0.1918        -0.2064        
338            -0.183           -0.1812        -0.17          
339            -0.748           -0.2571        -0.1594        
340            -0.208           -0.2465        -0.2495        
341            0.125            -0.1873        -0.2381        
342            -0.092           -0.1746        -0.1867        
343            0.029            -0.1388        -0.1549        
344            0.159            -0.0879        -0.1149        
345            0.783            0.0459         -0.0575        
346            -0.413           0.0029         0.0961         
347            -0.371           -0.0338        0.0417         
348            -1.011           -0.1621        -0.0043        
349            -0.078           -0.1475        -0.1565        
350            -0.207           -0.153         -0.1399        
351            -0.537           -0.203         -0.1519        
352            -0.512           -0.2442        -0.2049        
353            -0.45            -0.2758        -0.2533        
354            0.652            -0.1546        -0.2894        
355            -0.283           -0.1691        -0.1467        
356            -0.289           -0.184         -0.1643        
357            -1.071           -0.3105        -0.1821        
358            -0.148           -0.2953        -0.33          
359            0.226            -0.2255        -0.3106        
360            0.171            -0.1681        -0.2279        
361            1.598            0.0696         -0.1659        
362            -0.95            -0.0738        0.2892         
363            0.767            0.0957         -0.0688        
364            0.644            0.1951         0.1064         
365            1.206            0.3845         0.2424         
366            0.734            0.4721         0.4572         
367            0.617            0.5291         0.5526         
368            1.426            0.7055         0.6123         
369            0.204            0.6714         0.8095         
370            0.244            0.6405         0.7512         
371            0.389            0.611          0.65           
372            0.431            0.6187         0.6851         
373            0.595            0.6453         0.688          
374            1.084            0.7357         0.7134         
375            1.167            0.8297         0.813          
376            1.451            0.9554         0.9162         
377            1.609            1.0924         1.0555         
378            0.665            1.0792         1.207          
379            0.628            1.0545         1.1745         
380            -0.862           0.812          1.0611         
381            0.277            0.7633         0.8619         
382            1.38             0.8581         0.7949         
383            1.389            0.9198         0.8581         
384            1.008            0.962          0.991          
385            0.383            0.9148         1.0244         
386            1.121            0.9634         0.9638         
387            1.516            1.0614         1.0165         
388            0.798            1.053          1.1269         
389            0.085            0.9409         1.1113         
390            -0.613           0.732          0.9751         
391            -0.178           0.5978         0.7279         
392            0.337            0.5481         0.5713         
393            0.463            0.5217         0.5156         
394            0.376            0.4854         0.4874         
395            0.984            0.544          0.448          
396            0.661            0.5511         0.5194         
397            -0.1             0.4442         0.5296         
398            -0.238           0.3258         0.407          
399            0.827            0.3831         0.2928         
400            0.804            0.4317         0.3672         
401            0.584            0.4382         0.3995         
402            0.255            0.4009         0.4098         
403            -0.223           0.3067         0.3769         
404            -0.728           0.1743         0.2948         
405            1.052            0.2565         0.1072         
406            0.433            0.2589         0.2089         
407            -0.337           0.1602         0.2157         
408            -0.153           0.0929         0.1039         
409            0.487            0.121          0.03           
410            1.502            0.2949         0.0682         
411            0.714            0.3472         0.2759         
412            1.587            0.5087         0.3449         
413            -0.968           0.328          0.5187         
414            -0.696           0.1302         0.2878         
415            -0.23            0.0617         0.1066         
416            -1.247           -0.136         0.0461         
417            -0.295           -0.1613        -0.1466        
418            0.513            -0.1           -0.2151        
419            3.187            -0.0403        -0.1389        
420            3.187            0.0417         -0.0405        
421            1.609            0.2237         0.0057         
422            -3.741           0.0833         0.1665         
423            0.332            0.1369         0.0666         
424            0.985            0.3153         0.1185         
425            1.748            0.609          0.3247         
426            0.012            0.5133         0.6375         
427            1.25             0.6389         0.5294         
428            0.534            0.6447         0.692          
429            1.406            0.7837         0.6947         
430            1.323            0.8946         0.851          
431            0.043            0.7993         0.9738         
432            -0.031           0.6992         0.8575         
433            -0.007           0.6096         0.7371         
434            0.548            0.6092         0.6303         
435            1.193            0.7044         0.6282         
436            0.497            0.6874         0.7371         
437            1.594            0.8344         0.7147         
438            1.2              0.9099         0.8834         
439            0.017            0.8006         0.9672         
440            0.218            0.7281         0.8355         
441            0.245            0.6642         0.7482         
442            1.163            0.7425         0.6722         
443            0.803            0.7602         0.7627         
444            0.543            0.7366         0.7816         
445            1.4              0.8432         0.7524         
446            1.048            0.8876         0.8751         
447            0.203            0.8            0.9242         
448            -0.1             0.6725         0.8193         
449            1.403            0.7813         0.6694         
450            2.076            0.9828         0.7962         
451            1.59             1.0941         1.0294         
452            0.878            1.0874         1.1551         
453            2.02             1.2513         1.1423         
454            1.79             1.3652         1.3284         
455            -0.088           1.1842         1.4546         
456            -0.04            1.0222         1.2369         
457            1.119            1.0461         1.0441         
458            2.365            1.2549         1.0701         
459            2.495            1.4654         1.311          
460            1.176            1.4583         1.5513         
461            2.341            1.6242         1.536          
462            2.209            1.754          1.7225         
463            0.676            1.6391         1.8655         
464            0.617            1.5208         1.7228         
465            1.609            1.5586         1.5784         
466            3.082            1.7804         1.5831         
467            2.66             2.2977         2.4878         
468            -0.128           1.8615         2.4138         
469            2.579            2.049          1.9098         
470            1.949            2.0555         2.1196         
471            2.689            2.2065         2.1222         
472            2.324            2.2618         2.2892         
473            1.439            2.1532         2.3465         
474            1.178            2.0161         2.2165         
475            2.618            2.1302         2.055          
476            3.118            2.3091         2.1831         
477            3.185            2.4776         2.3849         
478            2.547            2.5288         2.5733         
479            3.135            2.662          2.625          
480            3.479            2.8323         2.7716         
481            1.465            2.702          3.0883         
482            2.989            2.7864         2.7887         
483            2.462            2.7718         2.8797         
484            2.583            2.7762         2.8553         
485            2.268            2.7276         2.8537         
486            2.268            2.7162         3.4909         
487            2.899            2.7849         2.7338         
488            2.583            2.7375         2.8094         
489            2.943            2.7932         2.7551         
490            2.032            2.641          2.8164         
491            3.291            2.7681         2.6443         
492            4.906            3.5806         2.9208         
493            4.043            3.7536         3.6923         
494            4.744            4.0451         3.88           
495            3.915            4.0773         4.2003         
496            5.625            4.4456         4.2266         
497            4.216            4.4795         4.6335         
498            3.39             4.3623         4.6593         
499            3.168            4.2241         4.5133         
500            4.496            4.3186         4.3441         
501            4.964            4.4741         4.4439         
502            4.622            4.556          4.6134         
503            3.109            4.3917         4.6972         
504            5.106            4.5455         4.4959         
505            3.399            4.4631         4.9177         
506            3.399            4.2928         4.5616         
507            4.11             4.3103         4.4781         
508            3.1              4.0052         4.3872         
509            4.694            4.1921         3.9605         
510            3.178            3.9422         4.2052         
511            4.21             3.9938         3.9216         
512            3.803            3.9502         3.9814         
513            3.387            3.837          3.9327         
514            3.133            3.6987         3.8053         
515            4.062            3.7403         3.6501         
516            3.533            3.6898         3.701          
517            3.881            3.702          3.646          
518            3.422            3.6418         3.6633         
519            4.39             3.7385         3.5968         
520            3.492            3.6895         3.7121         
521            3.72             3.6806         3.6575         
522            2.648            3.5109         3.6496         
523            3.504            3.4861         3.4551         
524            3.848            3.5174         3.4309         
525            4.501            3.6467         3.4717         
526            2.99             3.5386         3.626          
527            4.622            3.6869         3.5018         
528            3.965            3.725          3.6775         
529            3.719            3.7231         3.7227         
530            3.188            3.641          3.7207         
531            3.412            3.5996         3.6253         
532            3.938            3.6419         3.5783         
533            3.236            3.561          3.6167         
534            4.343            3.6838         3.5373         
535            3.525            3.6566         3.6817         
536            3.378            3.6086         3.6504         
537            2.083            3.3582         3.5952         
538            4.082            3.4509         3.3061         
539            4.154            3.547          3.4177         
540            3.835            3.5852         3.5317         
541            2.856            3.4695         3.5772         
542            3.904            3.5251         3.4437         
543            3.385            3.4975         3.5103         
544            3.332            3.4647         3.4794         
545            1.97             3.2291         3.4428         
546            4.278            3.3629         3.171          
547            4.174            3.4717         3.3311         
548            4.199            3.5764         3.4601         
549            4.312            3.7085         3.589          
550            3.327            3.6553         3.735          
551            3.476            3.6324         3.6712         
552            2.324            3.425          3.6434         
553            3.956            3.5002         3.4022         
554            3.482            3.4935         3.4911         
555            4.04             3.5748         3.4841         
556            3.042            3.4942         3.5791         
557            4.389            3.6279         3.4853         
558            3.39             3.5971         3.6411         
559            3.73             3.6204         3.6043         
560            2.217            3.412          3.6308         
561            2.997            3.339          3.388          
562            2.023            3.126          3.3051         
563            1.833            2.9031         3.0603         
564            3.08             2.8937         2.8196         
565            1.61             2.461          2.5166         
566            4.345            2.7983         2.3322         
567            3.892            2.9825         2.7304         
568            4.178            3.1875         2.9473         
569            2.702            3.1014         3.1856         
570            3.725            3.2011         3.0868         
571            3.296            3.2174         3.2026         
572            2.487            3.1014         3.2212         
573            2.064            2.9314         3.0872         
574            4.111            3.0987         2.8921         
575            3.778            3.1991         3.0884         
576            3.993            3.3232         3.2054         
577            3.114            3.3022         3.3487         
578            3.462            3.3349         3.3223         
579            3.448            3.3621         3.3587         
580            2.435            3.2335         3.3883         
581            1.92             3.0371         3.2367         
582            3.874            3.1508         3.0082         
583            3.461            3.1941         3.1428         
584            3.656            3.2635         3.1938         
585            3.094            3.2427         3.2745         
586            3.661            3.3085         3.2494         
587            2.978            3.2659         3.3255         
588            2.053            3.0635         3.2832         
589            3.718            3.1633         3.038          
590            3.579            3.2289         3.1559         
591            3.562            3.2845         3.2325         
592            2.887            3.2261         3.2967         
593            3.351            3.2466         3.228          
594            3.134            3.2311         3.2516         
595            2.53             3.1239         3.2332         
596            2.53             3.044          3.1234         
597            1.832            2.867          3.0162         
598            2.153            2.745          2.8128         
599            3.591            2.8335         2.6753         
600            4.016            2.9798         2.784          
601            3.328            3.0207         2.9587         
602            3.357            3.064          3.0081         
603            3.278            3.0933         3.0596         
604            2.811            3.053          3.0941         
605            1.691            2.8793         3.0525         
606            0.6              2.6938         2.8771         
607            2.749            2.6717         2.6285         
608            3.982            2.8071         2.6081         
609            3.742            2.9124         2.7722         
610            4.811            3.1585         2.8986         
611            3.126            3.167          3.1883         
612            3.503            3.2261         3.1957         
613            3.504            3.2812         3.2625         
614            2.573            3.1975         3.3238         
615            2.211            3.0689         3.2106         
616            2.211            2.9538         3.0705         
617            3.746            3.0527         2.9421         
618            3.939            3.172          3.0527         
619            4.673            3.3872         3.1923         
620            3.878            3.4796         3.4423         
621            3.792            3.5524         3.5457         
622            3.207            3.5338         3.6252         
623            2.759            3.4481         3.5973         
624            2.991            3.3997         3.492          
625            4.24             3.5376         3.4319         
626            4.143            3.6498         3.59           
627            4.368            3.7852         3.7164         
628            3.769            3.8182         3.8685         
629            3.848            3.8575         3.9002         
630            3.313            3.8106         3.9392         
631            2.842            3.6939         3.878          
632            3.198            3.6376         3.7367         
633            4.767            3.8201         3.6678         
634            5.487            4.0949         3.8775         
635            5.577            4.3589         4.1923         
636            5.284            4.5542         4.4914         
637            4.731            4.646          4.7077         
638            3.841            4.5913         4.8019         
639            3.439            4.4752         4.7256         
640            3.802            4.4185         4.5798         
641            3.802            4.3381         4.419          
642            4.897            4.4444         4.4115         
643            5.287            4.5957         4.5296         
644            5.331            4.7419         4.6989         
645            5.574            4.9099         4.8608         
646            5.124            4.9992         5.047          
647            3.972            4.9113         5.1397         
648            4.008            4.8287         5.0255         
649            4.102            4.7609         4.9195         
650            5.941            4.9604         4.8258         
651            4.527            5.0603         5.5688         
652            4.22             4.883          5.1302         
653            5.541            5.0149         4.8875         
654            5.622            5.1452         5.0631         
655            5.421            5.2254         5.2227         
656            5.248            5.2622         5.3047         
657            5.563            5.3315         5.3148         
658            4.947            5.3429         5.5303         
659            4.325            5.1949         5.4149         
660            4.011            5.0132         5.2389         
661            4.54             4.9409         5.0264         
662            5.532            5.0365         4.942          
663            7.349            5.2758         5.04           
664            7.349            5.5131         5.2767         
665            7.349            5.7209         5.5148         
666            4.807            5.6582         5.8116         
667            5.923            5.7352         5.7623         
668            5.735            5.7827         5.8434         
669            4.481            5.6653         5.8898         
670            4.467            5.5425         5.7405         
671            4.467            5.4191         5.5441         
672            4.494            5.3198         5.4475         
673            5.169            5.3045         5.3283         
674            5.365            5.3139         5.3085         
675            7.192            5.5324         5.3152         
676            6.09             5.6199         5.5772         
677            5.948            5.6862         5.6763         
678            5.924            5.7449         5.7493         
679            4.541            5.6109         5.8128         
680            4.429            5.463          5.6494         
681            4.68             5.3558         5.4724         
682            5.461            5.3668         5.3459         
683            5.755            5.4204         5.3595         
684            6.036            5.5123         5.4229         
685            5.623            5.5363         5.53           
686            5.477            5.536          5.5565         
687            4.716            5.4211         5.5546         
688            4.371            5.2626         5.4191         
689            4.377            5.1176         5.2347         
690            5.438            5.1448         5.0683         
691            5.599            5.1958         5.104          
692            5.502            5.2295         5.1666         
693            5.596            5.2755         5.2081         
694            5.532            5.3089         5.2634         
695            4.537            5.1905         5.3032         
696            4.755            5.1147         5.166          
697            5.144            5.1043         5.0798         
698            6.05             5.232          5.0706         
699            6.565            5.4528         5.2116         
700            6.261            5.5997         5.4797         
701            6.219            5.7217         5.6479         
702            4.725            5.5873         5.7855         
703            4.702            5.462          5.6247         
704            4.596            5.332          5.4766         
705            5.697            5.3858         5.3248         
706            6.35             5.5354         5.3877         
707            6.286            5.6613         5.561          
708            5.772            5.7866         5.9233         
709            6.237            5.9126         5.8295         
710            5.669            5.8817         5.9702         
711            5.09             5.742          5.931          
712            6.139            5.8273         5.7682         
713            4.608            5.6249         5.8637         
714            4.613            5.4541         5.6297         
715            4.536            5.2941         5.4338         
716            5.441            5.2999         5.2517         
717            5.762            5.3566         5.2616         
718            5.066            5.3002         5.3298         
719            5.951            5.3859         5.2668         
720            6.012            5.4739         5.3685         
721            4.422            5.3136         5.4718         
722            4.762            5.2186         5.2861         
723            5.096            5.1829         5.178          
724            6.968            5.4335         5.1398         
725            6.513            5.5966         5.4347         
726            6.946            5.8117         5.6243         
727            7.769            6.1207         5.8615         
728            5.632            6.0647         6.1397         
729            6.518            6.1673         6.1612         
730            4.924            6.0426         6.2728         
731            4.862            5.9106         6.1184         
732            5.198            5.83           5.9578         
733            6.388            5.9228         5.8597         
734            6.804            6.069          5.9656         
735            6.319            6.1328         6.1328         
736            6.466            6.2115         6.2019         
737            6.392            6.2708         6.2879         
738            4.657            6.0641         6.3508         
739            4.665            5.8713         6.1032         
740            5.402            5.8025         5.8753         
741            7.69             6.0831         5.7949         
742            7.236            6.2732         6.1221         
743            6.865            6.3908         6.3402         
744            6.758            6.4804         6.4716         
745            6.635            6.5414         6.5692         
746            4.977            6.3446         6.633          
747            4.957            6.1577         6.3966         
748            5.618            6.0838         6.175          
749            7.661            6.3229         6.0876         
750            7.726            6.5521         6.3653         
751            7.685            6.755          6.6284         
752            7.146            6.8576         6.8581         
753            7.092            6.9402         6.969          
754            5.458            6.7665         7.056          
755            5.369            6.5895         6.8446         
756            5.711            6.4756         6.6324         
757            7.101            6.5786         6.4966         
758            7.164            6.6819         6.6145         
759            7.726            6.8601         6.7317         
760            7.439            6.9789         6.9349         
761            7.027            7.0235         7.067          
762            5.325            6.8056         7.1117         
763            5.362            6.6078         6.8511         
764            5.789            6.4887         6.6174         
765            7.129            6.5805         6.4781         
766            7.025            6.6496         6.5858         
767            7.456            6.7777         6.6657         
768            7.648            6.9238         6.8133         
769            7.338            7.0101         6.9803         
770            5.259            6.7747         7.076          
771            5.425            6.5811         6.7969         
772            6.173            6.515          6.57           
773            7.431            6.6439         6.494          
774            6.55             6.6305         6.6456         
775            7.971            6.8319         6.6299         
776            7.93             7.0108         6.8642         
777            7.176            7.0607         7.0696         
778            5.424            6.8408         7.1228         
779            5.141            6.5941         6.862          
780            6.085            6.5087         6.5734         
781            6.818            6.5413         6.4758         
782            7.349            6.6522         6.5164         
783            6.353            6.6052         6.6474         
784            7.52             6.7377         6.5931         
785            7.27             6.8222         6.7481         
786            5.068            6.5682         6.8456         
787            5.337            6.3745         6.5483         
788            6.198            6.3348         6.341          
789            8.863            6.5283         6.2102         
790            8.863            6.7854         6.5277         
791            7.472            6.9029         6.8132         
792            7.566            7.0239         6.9488         
793            5.759            6.8571         7.0857         
794            5.472            6.6591         6.8869         
795            5.51             6.483          6.6546         
796            6.635            6.4921         6.4504         
797            6.732            6.5163         6.4637         
798            7.727            6.6894         6.494          
799            7.009            6.7408         6.6971         
800            7.437            6.8522         6.7562         
801            7.006            6.889          6.8843         
802            5.776            6.7366         6.9245         
803            5.467            6.549          6.7445         
804            6.126            6.4754         6.5256         
805            7.532            6.6202         6.442          
806            7.126            6.6888         6.6175         
807            8.176            6.887          6.6915         
808            7.239            6.9504         6.9236         
809            7.541            7.0507         6.9945         
810            7.256            7.104          7.1078         
811            5.652            6.9242         7.1652         
812            5.776            6.7704         6.9503         
813            6.333            6.6201         6.756          
814            7.427            6.835          6.5986         
815            7.13             6.9092         6.8439         
816            7.213            6.9817         6.9274         
817            7.272            7.0497         7.0084         
818            6.749            7.0081         7.0838         
819            5.485            6.7523         7.0341         
820            5.591            6.5525         6.7406         
821            6.783            6.5735         6.5131         
822            7.613            6.7242         6.54           
823            7.602            6.8567         6.7161         
824            9.238            7.0684         6.8572         
825            7.803            7.1891         7.1129         
826            7.915            7.316          7.249          
827            7.17             7.3279         7.3915         
828            5.807            7.1422         7.3992         
829            5.623            6.9387         7.177          
830            7.171            6.9701         6.9376         
831            7.768            7.1521         6.9855         
832            7.243            7.1831         7.1832         
833            5.629            6.8966         7.2165         
834            5.43             6.622          6.8836         
835            7.629            6.7772         6.5682         
836            8.22             7.0119         6.7511         
837            7.617            7.1104         7.0192         
838            10.249           7.2376         7.1201         
839            8.001            7.3741         7.2825         
840            8.454            7.5652         7.4367         
841            7.564            7.6022         7.6529         
842            6.144            7.4192         7.6888         
843            6.564            7.3121         7.4697         
844            7.979            7.4246         7.3414         
845            9.32             7.728          7.4697         
846            9.276            7.9986         7.8186         
847            8.364            8.1075         8.1258         
848            8.811            8.2702         8.242          
849            6.832            8.118          8.4203         
850            6.495            7.9221         8.231          
851            7.331            7.8636         7.9938         
852            8.574            7.9944         7.9199         
853            8.894            8.1609         8.0675         
854            7.919            8.1646         8.2553         
855            6.066            7.9232         8.1804         
856            9.405            8.1374         7.9612         
857            9.48             8.3541         8.2161         
858            8.814            8.4644         8.4623         
859            7.29             8.3496         8.5819         
860            7.602            8.2809         8.4381         
861            9.563            8.4957         8.3505         
862            9.449            8.6772         8.5953         
863            9.613            8.8665         8.7988         
864            10.185           9.1223         9.0095         
865            9.881            9.3089         9.2959         
866            9.111            9.3603         9.499          
867            7.302            9.1748         9.5432         
868            7.897            9.0411         9.3122         
869            9.885            9.1817         9.0929         
870            9.885            9.3235         9.2844         
871            11.04            9.5672         9.3761         
872            10.967           9.7298         9.5724         
873            8.644            9.6291         9.7596         
874            8.644            9.5366         9.6321         
875            8.605            9.4594         9.5466         
876            8.897            9.4158         9.4637         
877            8.897            9.3777         9.4178         
878            10.012           9.4626         9.4564         
879            12.313           9.5328         9.4709         
880            12.313           9.6026         9.5366         
881            12.426           9.6988         9.6587         
882            6.617            9.6621         9.7228         
883            9.766            9.7391         9.8116         
884            9.69             9.8137         9.9119         
885            9.591            9.8695         9.9842         
886            7.532            9.8017         10.0342        
887            7.833            9.6541         9.937          
888            9.758            9.7078         9.7476         
889            10.217           9.8146         9.8027         
890            10.599           9.9655         9.9205         
891            10.07            10.0333        10.0894        
892            10.445           10.1453        10.1583        
893            10.204           10.1735        10.1926        
894            9.541            10.2463        10.6641        
895            10.501           10.3373        10.3528        
896            10.501           10.4129        10.4498        
897            10.372           10.4535        10.5284        
898            10.624           10.5292        10.5663        
899            9.924            10.4779        10.6449        
900            8.199            10.2531        10.5768        
901            8.199            9.9695         10.3096        
902            8.199            9.6937         9.9778         
903            8.199            9.4462         9.6585         
904            8.199            9.224          9.3751         
905            9.944            9.2915         9.1236         
906            10.261           9.404          9.2097         
907            10.16            9.4938         9.3465         
908            8.859            9.3818         9.4553         
909            9.621            9.3951         9.3284         
910            11.203           9.6466         9.3481         
911            11.634           9.9437         9.644          
912            12.235           10.2261        9.9894         
913            13.072           10.45          10.314         
914            13.039           10.7442        10.5671        
915            12.05            11.02          10.8995        
916            12.642           11.3572        11.2073        
917            13.502           11.7842        11.5837        
918            15.011           12.0685        12.061         
919            15.537           12.3457        12.3687        
920            15.217           12.6414        12.5133        
921            15.223           12.9732        12.8105        
922            16.116           13.3472        13.3666        
923            15.741           13.8778        13.7686        
924            15.609           14.3635        14.3496        
925            14.339           14.5732        14.8745        
926            15.426           14.9216        15.077         
927            16.447           15.3814        15.4406        
928            16.623           15.8078        15.9319        
929            17.038           16.241         16.3822        
930            16.854           16.5881        16.8386        
931            16.969           16.9027        17.1933        
932            16.582           17.0701        17.4081        
933            17.116           17.8331        18.9501        
934            16.57            17.8254        18.3988        
935            16.921           17.8761        18.346         
936            17.464           18.0064        18.3645        
937            16.804           17.9998        18.4772        
938            16.954           18.0093        18.4334        
939            15.566           17.9885        18.4109        
940            16.971           17.9751        18.3557        
941            18.214           18.1548        18.3117        
942            18.638           18.3736        18.4931        
943            19.268           18.6543        18.7086        
944            20.031           19.0263        19.03          
945            19.481           19.2626        19.4195        
946            19.852           19.5219        19.6621        
947            18.743           19.5768        19.9309        
948            19.853           19.782         19.9617        
949            21.866           20.2615        20.169         
950            22.237           20.7438        20.6948        
951            22.703           21.2417        21.2202        
952            24.134           21.7055        21.7602        
953            24.62            22.1948        22.2574        
954            25.205           22.6974        22.7813        
955            24.254           23.2141        23.3178        
956            25.573           23.8667        23.8676        
957            25.573           24.1057        23.8667        
958            26.938           24.6902        24.8497        
959            26.877           25.3409        25.4686        
960            28.036           25.6696        25.6282        
961            25.988           25.9518        26.2228        
962            25.659           25.9404        26.0047        
963            28.26            26.5706        26.7336        
964            27.167           27.0323        27.4554        
965            26.967           27.4103        27.9204        
966            25.431           27.6451        28.287         
967            26.839           27.8952        28.4869        
968            27.718           28.2188        28.7079        
969            27.278           28.4253        29.0174        
970            27.438           28.6087        29.1911        
971            29.663           29.076         29.3409        
972            27.849           29.2133        29.8251        
973            27.517           29.2779        29.9229        
974            25.668           29.565         29.9392        
975            27.411           29.6274        30.2191        
976            28.18            29.636         30.2383        
977            28.05            29.6076        30.199         
978            28.049           29.5685        30.121         
979            29.646           29.7767        30.0348        
980            28.18            29.7186        30.239         
981            27.628           29.658         30.135         
982            26.634           29.7156        30.0318        
983            27.987           29.5717        30.0688        
984            28.537           29.5278        29.8743        
985            28.104           29.4118        29.7997        
986            28.104           29.5534        31.037         
987            28.104           29.2191        29.6935        
988            28.104           28.9916        29.3046        
989            28.104           28.824         29.0409        
990            28.104           28.6934        28.8473        
991            28.104           28.5875        28.6973        
992            28.104           28.4991        28.5765        
993            28.104           28.4272        28.4809        
994            28.104           28.378         28.4207        
995            30.148           28.614         28.3396        
996            29.993           28.8104        28.6139        
997            29.978           28.99          28.8406        
998            31.707           29.2013        29.0462        
999            30.007           29.3585        29.2869        
1000           29.112           29.3658        29.4626        
1001           28.677           29.3034        29.4625        
1002           29.863           29.421         29.3821        
1003           30.253           29.5852        29.5125        
1004           30.557           29.779         29.6962        
1005           30.225           29.9032        29.9128        
1006           32.137           30.2536        30.0464        
1007           30.211           30.3273        30.4428        
1008           29.998           30.3561        30.5132        
1009           29.54            30.3065        30.5314        
1010           31.012           30.4784        30.4592        
1011           30.592           30.567         30.6468        
1012           30.852           30.682         30.7362        
1013           30.63            30.748         30.8561        
1014           31.999           31.0098        30.9186        
1015           30.303           31.0522        31.4087        
1016           31.847           31.2861        31.2802        
1017           31.422           31.5198        31.806         
1018           31.825           31.6561        31.709         
1019           32.243           31.8453        31.8516        
1020           31.234           31.8221        32.0546        
1021           30.857           31.7349        32.0122        
1022           29.945           31.5043        31.8975        
1023           31.563           31.5622        31.6197        
1024           31.64            31.6231        31.6776        
1025           31.641           31.6748        31.739         
1026           31.717           31.7299        31.7897        
1027           32.503           31.897         31.8444        
1028           31.663           31.9172        32.0289        
1029           30.868           31.811         32.0418        
1030           30.272           31.6198        31.9086        
1031           31.828           31.6763        31.6789        
1032           31.912           31.7345        31.7312        
1033           31.912           31.7761        31.7736        
1034           37.335           32.1625        32.4649        
1035           33.929           32.892         32.24          
1036           32.03            32.7856        34.211         
1037           32.294           32.6363        32.8698        
1038           31.732           32.4014        32.7004        
1039           31.153           32.1137        32.4369        
1040           32.664           32.2314        32.1153        
1041           32.794           32.3464        32.2467        
1042           33.896           32.6366        32.3747        
1043           32.855           32.6979        32.6953        
1044           35.613           32.8559        32.7034        
1045           34.478           33.1401        32.9451        
1046           32.795           33.1409        33.2635        
1047           31.538           32.9518        33.2553        
1048           31.364           32.7492        33.0279        
1049           32.776           32.7693        32.787         
1050           32.994           32.8188        32.8072        
1051           33.44            32.9299        32.8618        
1052           33.526           33.044         32.9878        
1053           34.443           33.2857        33.1162        
1054           33.002           33.288         33.3925        
1055           31.969           33.1291        33.3862        
1056           31.669           32.9333        33.1924        
1057           33.015           32.9564        32.9584        
1058           33.258           33.0139        32.9833        
1059           35.808           33.1662        33.0147        
1060           33.155           33.1896        33.2244        
1061           33.131           33.2063        33.2482        
1062           33.628           33.2916        33.2627        
1063           32.889           33.2608        33.3576        
1064           32.158           33.1217        33.3162        
1065           32.122           32.9851        33.1493        
1066           33.219           33.021         32.9876        
1067           33.945           33.1628        33.0293        
1068           32.612           33.093         33.1863        
1069           35.712           33.2673        33.0973        
1070           33.493           33.3184        33.3133        
1071           33.998           33.4357        33.3691        
1072           33.023           33.4052        33.5017        
1073           32.263           33.2645        33.4607        
1074           32.025           33.096         33.2919        
1075           33.352           33.1323        33.0931        
1076           33.801           33.2323        33.1356        
1077           32.992           33.2023        33.2368        
1078           33.387           33.2313        33.2133        
1079           33.01            33.2095        33.2496        
1080           32.375           33.1074        33.2143        
1081           32.375           33.0218        33.106         
1082           34.495           33.4622        32.8457        
1083           32.536           33.2228        33.516         
1084           32.421           33.0355        33.2407        
1085           33.577           33.1496        33.0273        
1086           34.046           33.3307        33.1572        
1087           32.541           33.1981        33.3534        
1088           33.569           33.2555        33.199         
1089           34.423           33.4165        33.2594        
1090           33.218           33.4075        33.458         
1091           32.174           33.2595        33.4137        
1092           34.882           33.7781        33.3812        
1093           34.924           34.0974        33.8585        
1094           36.655           34.5474        34.2168        
1095           34.679           34.6436        34.7211        
1096           33.793           34.5488        34.8187        
1097           34.144           34.5358        34.6983        
1098           36.026           34.8521        34.6729        
1099           35.766           35.0774        35.0249        
1100           35.876           35.2528        35.1988        
1101           37.574           35.5304        35.3308        
1102           35.659           35.6541        35.7763        
1103           37.124           35.9695        35.9002        
1104           35.901           36.078         36.2458        
1105           33.936           35.968         36.3496        
1106           34.233           35.8126        36.1997        
1107           36.437           35.9844        35.9998        
1108           36.281           36.1136        36.1845        
1109           35.731           36.1425        36.3148        
1110           35.731           36.0907        36.146         
1111           36.514           36.2268        36.2749        
1112           37.149           36.4348        36.4183        
1113           35.617           36.4121        36.6453        
1114           34.333           36.2522        36.6009        
1115           34.893           36.1192        36.3979        
1116           37.29            36.3369        36.2301        
1117           36.248           36.3828        36.4751        
1118           36.493           36.4564        36.5172        
1119           36.875           36.5763        36.5918        
1120           37.648           36.7979        36.7205        
1121           35.729           36.7093        36.9668        
1122           34.722           36.4868        36.8496        
1123           34.759           36.2656        36.5789        
1124           37.554           36.4803        36.3138        
1125           36.635           36.5374        36.5598        
1126           37.188           36.645         36.5758        
1127           36.521           36.6889        36.7933        
1128           37.652           36.8499        36.7419        
1129           36.133           36.8981        37.4672        
1130           35.941           36.7071        36.9339        
1131           37.753           36.904         36.7205        
1132           44.272           36.948         36.992         
1133           37.439           37.0763        37.0202        
1134           35.891           36.8857        37.1619        
1135           34.65            36.5824        36.9373        
1136           35.262           36.3539        36.5855        
1137           37.336           36.5061        36.3231        
1138           36.417           36.4891        36.5002        
1139           37.003           36.5641        36.4854        
1140           36.646           36.5764        36.5661        
1141           37.026           36.6416        36.5818        
1142           37.132           36.7173        36.6569        
1143           36.001           36.6268        36.7434        
1144           34.545           36.3596        36.6362        
1145           35.659           36.2548        36.3385        
1146           37.07            36.3444        36.1841        
1147           40.637           36.3477        36.3146        
1148           38.693           36.599         36.338         
1149           38.07            36.8216        36.6089        
1150           39.482           37.0338        36.8617        
1151           35.985           36.8766        37.8023        
1152           35.79            36.5543        36.8893        
1153           34.645           36.0572        36.525         
1154           35.317           35.8559        35.9665        
1155           37.433           36.1327        35.7451        
1156           36.574           36.1719        35.9978        
1157           37.163           36.3427        36.1412        
1158           36.625           36.3702        36.1364        
1159           35.004           36.0187        36.3686        
1160           35.004           35.7739        35.9708        
1161           35.004           35.5839        35.6888        
1162           35.004           35.4322        35.4792        
1163           35.004           35.3076        35.3141        
1164           35.004           35.2032        35.1803        
1165           35.004           35.1149        35.0701        
1166           35.004           34.9832        34.8424        
1167           35.004           34.9309        34.8477        
1168           35.004           34.8878        34.7977        
1169           35.004           34.8528        34.7583        
1170           35.004           34.8248        34.7279        
1171           35.004           34.803         34.7052        
1172           35.004           34.7867        34.6894        
1173           35.107           34.7912        34.6795        
1174           36.654           35.0376        34.6934        
1175           36.869           35.2979        34.9874        
1176           37.2             35.5874        35.2938        
1177           36.171           35.6949        35.6307        
1178           35.13            35.6331        35.7522        
1179           35.577           35.6426        35.6756        
1180           36.826           35.8397        35.6832        
1181           36.265           35.9337        35.9092        
1182           36.652           36.0763        36.013         
1183           37.189           36.2858        36.1724        
1184           37.34            36.4975        36.4083        
1185           35.78            36.4512        36.6446        
1186           33.322           36.3899        36.5788        
1187           35.933           36.3599        36.4969        
1188           37.123           36.5222        36.4534        
1189           36.33            36.5387        36.6344        
1190           39.669           36.6581        36.5433        
1191           36.471           36.681         36.7774        
1192           36.775           36.7455        36.7997        
1193           36.853           36.8124        36.865         
1194           35.63            36.6872        36.9331        
1195           33.625           36.5985        36.7777        
1196           36.204           36.564         36.6673        
1197           37.121           36.6767        36.6216        
1198           36.256           36.6405        36.7478        
1199           36.636           36.6649        36.7001        
1200           37.232           36.7776        36.7237        
1201           37.271           36.884         36.8497        
1202           35.861           36.7627        36.9675        
1203           34.852           36.4955        36.8199        
1204           36.019           36.4271        36.5051        
1205           37.313           36.5605        36.4248        
1206           37.546           36.9453        36.7159        
1207           35.579           36.5862        37.0062        
1208           35.489           36.3247        36.5954        
1209           36.181           36.2835        36.2989        
1210           37.155           36.4401        36.2735        
1211           36.673           36.4784        36.4267        
1212           35.092           36.2316        36.4765        
1213           38.114           36.5362        36.1952        
1214           38.474           36.8227        36.5375        
1215           38.4             37.3449        37.122         
1216           36.648           37.2238        37.4495        
1217           36.648           37.1242        37.2593        
1218           36.648           37.1051        37.6302        
1219           39.757           37.7733        37.1631        
1220           38.116           37.9061        37.8807        
1221           36.591           37.64          38.0232        
1222           36.183           37.3623        37.7168        
1223           37.824           37.4666        37.399         
1224           38.894           37.7449        37.5145        
1225           38.093           37.8357        37.8208        
1226           37.316           37.7898        37.9321        
1227           39.122           38.0361        37.8658        
1228           38.112           38.093         38.1428        
1229           36.255           37.8532        38.2003        
1230           36.298           37.6406        37.9151        
1231           37.377           37.6103        37.664         
1232           38.746           37.79          37.627         
1233           38.561           37.9258        37.8345        
1234           37.471           37.8836        37.9888        
1235           38.956           38.0678        37.9345        
1236           38.049           38.0976        38.1449        
1237           36.335           37.8621        38.1732        
1238           36.038           37.5978        37.8925        
1239           37.809           37.6232        37.5821        
1240           38.924           37.8167        37.613         
1241           38.758           37.9694        37.8392        
1242           36.736           37.8013        38.0152        
1243           39.045           37.9964        37.8156        
1244           37.952           38.0089        38.0417        
1245           36.197           37.7522        38.0525        
1246           35.988           37.4836        37.7502        
1247           37.82            37.5152        37.4378        
1248           38.875           37.7056        37.4783        
1249           38.786           37.868         37.7028        
1250           36.728           37.7057        37.8919        
1251           40.13            37.9408        37.7012        
1252           37.841           37.9399        37.9749        
1253           37.841           37.9292        37.9468        
1254           39.051           38.2392        38.0677        
1255           37.049           38.0149        38.3051        
1256           38.464           38.114         38.042         
1257           37.826           38.0768        38.1539        
1258           36.145           37.7472        38.1082        
1259           36.074           37.4533        37.7272        
1260           37.562           37.4452        37.3907        
1261           38.611           37.6088        37.3861        
1262           38.347           37.7133        37.5791        
1263           37.109           37.6142        37.7019        
1264           39.253           37.8561        37.5884        
1265           37.866           37.8636        37.8702        
1266           36.286           37.6297        37.8777        
1267           35.964           37.3674        37.6056        
1268           37.878           37.4172        37.3031        
1269           38.774           37.5999        37.3661        
1270           38.341           37.7041        37.5825        
1271           36.861           37.5776        37.705         
1272           39.155           37.8066        37.5579        
1273           38.137           37.8645        37.8258        
1274           36.25            37.6329        37.8916        
1275           37.048           37.5437        37.6232        
1276           34.926           37.1186        37.4319        
1277           46.098           37.1154        37.1123        
1278           39.415           37.4671        37.0315        
1279           37.969           37.5581        37.4429        
1280           36.106           37.2801        37.5494        
1281           36.172           37.0605        37.2306        
1282           37.847           37.1639        36.9818        
1283           38.572           37.3756        37.1066        
1284           38.088           37.4828        37.3545        
1285           36.976           37.4006        37.4796        
1286           38.854           37.6221        37.3851        
1287           37.92            37.6767        37.6421        
1288           36.145           37.4531        37.7036        
1289           36.396           37.2875        37.4426        
1290           38.193           37.4096        37.2517        
1291           38.571           37.5794        37.3961        
1292           38.218           37.682         37.5943        
1293           37.427           37.6565        37.7123        
1294           38.981           37.8659        37.6801        
1295           37.929           37.8991        37.9217        
1296           36.026           37.6412        37.9558        
1297           36.573           37.4846        37.6511        
1298           38.465           37.6253        37.4681        
1299           38.655           37.7838        37.6331        
1300           38.218           37.8633        37.8169        
1301           37.233           37.7867        37.9068        
1302           38.624           37.9246        37.8141        
1303           38.151           37.979         37.9723        
1304           35.879           37.7221        38.0317        
1305           36.64            37.5612        37.7285        
1306           38.43            37.6838        37.5409        
1307           38.778           37.8496        37.6851        
1308           37.787           37.8521        37.8778        
1309           38.116           37.9031        37.8785        
1310           39.157           38.106         37.9356        
1311           38.139           38.1377        38.169         
1312           35.793           37.9249        38.2007        
1313           36.695           37.7466        37.9481        
1314           38.581           37.8706        37.7389        
1315           39.109           38.0646        37.8836        
1316           37.228           37.956         38.108         
1317           37.93            37.9615        37.9783        
1318           39.018           38.1305        37.9829        
1319           38.199           38.1608        38.1776        
1320           36.057           37.9016        38.209         
1321           36.772           37.7318        37.9038        
1322           38.614           37.8541        37.7062        
1323           39.183           38.0531        37.8505        
1324           37.447           37.974         38.0821        
1325           36.692           37.7945        37.9825        
1326           36.927           37.6773        37.7883        
1327           38.749           37.8066        37.6425        
1328           37.517           37.7623        37.796         
1329           35.891           37.494         37.7452        
1330           36.949           37.391         37.4337        
1331           38.818           37.5644        37.3185        
1332           39.117           37.7732        37.5269        
1333           37.701           37.7628        37.7736        
1334           37.995           37.7964        37.7615        
1335           38.971           37.9722        37.8008        
1336           37.629           37.9352        38.0053        
1337           36.042           37.663         37.9595        
1338           37.014           37.5563        37.6404        
1339           38.606           37.6974        37.518         
1340           38.8             37.8579        37.6854        
1341           37.23            37.77          37.8732        
1342           36.976           37.6505        37.7697        
1343           38.468           37.765         37.6306        
1344           37.322           37.6986        37.7655        
1345           35.92            37.4265        37.6882        
1346           37.228           37.3738        37.3727        
1347           38.54            37.5246        37.3157        
1348           38.833           37.7092        37.4958        
1349           37.304           37.6498        37.7128        
1350           36.268           37.4493        37.6455        
1351           37.003           37.3851        37.4367        
1352           37.617           37.3954        37.3369        
1353           36.949           37.316         37.3529        
1354           35.633           37.0593        37.2638        
1355           37.274           37.0508        36.9688        
1356           38.849           37.2718        36.9663        
1357           38.677           37.4577        37.2313        
1358           37.327           37.436         37.4516        
1359           37.178           37.3942        37.4268        
1360           37.04            37.3352        37.3788        
1361           36.957           37.2689        37.3113        
1362           35.937           37.0562        37.236         
1363           37.248           37.0572        36.991         
1364           38.227           37.2071        36.9975        
1365           38.261           37.3525        37.1769        
1366           36.407           37.209         37.3486        
1367           35.156           36.4447        36.9926        
1368           35.668           36.1866        36.3287        
1369           36.157           36.1254        36.044         
1370           35.716           35.9816        35.9841        
1371           35.906           35.9061        35.8306        
1372           35.906           35.8445        35.7551        
1373           35.906           35.8031        35.719         
1374           35.906           35.8087        35.78          
1375           36.773           35.8892        35.6649        
1376           38.606           36.0026        35.7676        
1377           37.392           36.173         35.9071        
1378           36.363           36.1752        36.1109        
1379           35.997           36.1243        36.1184        
1380           37.088           36.2427        36.0639        
1381           38.094           36.5037        36.2061        
1382           38.041           36.7373        36.5124        
1383           37.186           36.8241        36.7833        
1384           38.609           37.1159        36.8805        
1385           37.208           37.1721        37.2157        
1386           36.212           37.0704        37.273         
1387           35.942           36.9324        37.1462        
1388           37.234           36.9978        36.9791        
1389           38.039           37.178         37.0515        
1390           38.17            37.3616        37.2569        
1391           37.186           37.3786        37.4642        
1392           38.852           37.6428        37.4756        
1393           37.086           37.6147        37.7752        
1394           36.399           37.4803        37.7316        
1395           36.005           37.2933        37.5657        
1396           37.46            37.3388        37.3412        
1397           38.087           37.4737        37.3902        
1398           38.065           37.5925        37.5429        
1399           37.031           37.5429        37.6754        
1400           36.968           37.485         37.6109        
1401           36.664           37.3837        37.5381        
1402           36.369           37.2443        37.4159        
1403           35.683           37.0119        37.2513        
1404           37.383           37.0545        36.9805        
1405           38.36            37.2418        37.0325        
1406           38.527           37.4398        37.2522        
1407           36.739           37.352         37.4815        
1408           37.85            37.4371        37.376         
1409           36.887           37.3696        37.4731        
1410           36.035           37.1781        37.3916        
1411           35.605           36.9367        37.1671        
1412           37.169           36.9507        36.8873        
1413           37.549           37.0224        36.9076        
1414           38.704           37.2636        36.9945        
1415           36.637           37.1751        37.2772        
1416           37.105           37.1638        37.1732        
1417           36.261           37.0264        37.1602        
1418           34.969           36.7188        37.0008        
1419           35.069           36.4392        36.6452        
1420           36.534           36.4054        36.3261        
1421           37.853           36.5768        36.296         
1422           38.488           36.8335        36.5041        
1423           36.563           36.7822        36.8086        
1424           36.79            36.7701        36.751         
1425           36.752           36.7556        36.7423        
1426           37.665           36.8735        36.7527        
1427           35.634           36.7028        36.8622        
1428           35.758           36.5573        36.6643        
1429           37.424           36.652         36.4979        
1430           37.914           36.8131        36.6132        
1431           37.976           36.9754        36.8045        
1432           36.633           36.9342        36.9946        
1433           38.201           37.1234        36.945         
1434           37.056           37.1312        37.1648        
1435           35.903           36.9664        37.1704        
1436           35.529           36.7566        36.975         
1437           37.325           36.83          36.7298        
1438           38.17            37.0251        36.8175        
1439           37.99            37.1785        37.0457        
1440           36.671           37.1211        37.2226        
1441           38.546           37.3484        37.1522        
1442           37.848           37.4515        37.4142        
1443           36.384           37.3237        37.5287        
1444           35.972           37.1416        37.3738        
1445           37.517           37.2051        37.158         
1446           38.383           37.393         37.2304        
1447           38.044           37.5139        37.4469        
1448           37.567           37.5512        37.583         
1449           38.338           37.6991        37.6209        
1450           38.01            37.7833        37.7872        
1451           36.389           37.6138        37.8778        
1452           35.53            37.3592        37.6731        

